Sample:	'TEST(EM)
File name:	XXX.FDS
Run Date:	16:21:10, 08/12/2010
Operator:	XXX
Comment:	'091217Manual

Instrument
Model:	F-7000 FL Spectrophotometer
Serial Number:	XXX-XXX
ROM Version:	5J14000 06

Instrument Parameters
Measurement type:	Wavelength scan
Scan mode:	Emission
Data mode:	Fluorescence
EX WL:	395.0 nm
EM  Start WL:	200.0 nm
EM  End WL:	900.0 nm
Scan speed:	1200 nm/min
Delay:	0.0 s
EX Slit:	5.0 nm
EM Slit:	5.0 nm
PMT Voltage:	400 V
Response:	Auto 
Corrected spectra:	Off
Shutter control:	Off

Data Points
nm	Data
200.0	-0.030
200.2	-0.036
200.4	-0.046
200.6	-0.043
200.8	-0.039
201.0	-0.046
201.2	-0.038
201.4	-0.035
201.6	-0.039
201.8	-0.035
202.0	-0.040
202.2	-0.041
202.4	-0.037
202.6	-0.039
202.8	-0.045
203.0	-0.035
203.2	-0.027
203.4	-0.030
203.6	-0.030
203.8	-0.020
204.0	-0.022
204.2	-0.018
204.4	-0.020
204.6	-0.033
204.8	-0.043
205.0	-0.043
205.2	-0.043
205.4	-0.047
205.6	-0.044
205.8	-0.045
206.0	-0.040
206.2	-0.035
206.4	-0.046
206.6	-0.056
206.8	-0.049
207.0	-0.046
207.2	-0.048
207.4	-0.034
207.6	-0.042
207.8	-0.043
208.0	-0.028
208.2	-0.032
208.4	-0.040
208.6	-0.044
208.8	-0.042
209.0	-0.043
209.2	-0.040
209.4	-0.045
209.6	-0.045
209.8	-0.049
210.0	-0.043
210.2	-0.041
210.4	-0.047
210.6	-0.051
210.8	-0.042
211.0	-0.042
211.2	-0.026
211.4	-0.028
211.6	-0.030
211.8	-0.040
212.0	-0.039
212.2	-0.050
212.4	-0.044
212.6	-0.038
212.8	-0.044
213.0	-0.043
213.2	-0.039
213.4	-0.036
213.6	-0.043
213.8	-0.043
214.0	-0.046
214.2	-0.042
214.4	-0.039
214.6	-0.045
214.8	-0.046
215.0	-0.044
215.2	-0.041
215.4	-0.050
215.6	-0.046
215.8	-0.043
216.0	-0.043
216.2	-0.044
216.4	-0.040
216.6	-0.039
216.8	-0.039
217.0	-0.033
217.2	-0.045
217.4	-0.054
217.6	-0.052
217.8	-0.050
218.0	-0.048
218.2	-0.049
218.4	-0.048
218.6	-0.038
218.8	-0.036
219.0	-0.039
219.2	-0.040
219.4	-0.048
219.6	-0.048
219.8	-0.060
220.0	-0.058
220.2	-0.059
220.4	-0.045
220.6	-0.042
220.8	-0.038
221.0	-0.039
221.2	-0.042
221.4	-0.047
221.6	-0.053
221.8	-0.045
222.0	-0.047
222.2	-0.048
222.4	-0.052
222.6	-0.050
222.8	-0.051
223.0	-0.042
223.2	-0.046
223.4	-0.051
223.6	-0.051
223.8	-0.057
224.0	-0.060
224.2	-0.062
224.4	-0.064
224.6	-0.057
224.8	-0.055
225.0	-0.060
225.2	-0.058
225.4	-0.069
225.6	-0.065
225.8	-0.061
226.0	-0.056
226.2	-0.058
226.4	-0.056
226.6	-0.055
226.8	-0.040
227.0	-0.045
227.2	-0.046
227.4	-0.045
227.6	-0.050
227.8	-0.054
228.0	-0.044
228.2	-0.054
228.4	-0.051
228.6	-0.050
228.8	-0.055
229.0	-0.055
229.2	-0.061
229.4	-0.050
229.6	-0.042
229.8	-0.047
230.0	-0.055
230.2	-0.057
230.4	-0.052
230.6	-0.043
230.8	-0.046
231.0	-0.043
231.2	-0.042
231.4	-0.047
231.6	-0.047
231.8	-0.043
232.0	-0.043
232.2	-0.037
232.4	-0.041
232.6	-0.051
232.8	-0.059
233.0	-0.058
233.2	-0.055
233.4	-0.050
233.6	-0.061
233.8	-0.058
234.0	-0.058
234.2	-0.050
234.4	-0.043
234.6	-0.042
234.8	-0.051
235.0	-0.056
235.2	-0.064
235.4	-0.062
235.6	-0.053
235.8	-0.048
236.0	-0.042
236.2	-0.050
236.4	-0.048
236.6	-0.050
236.8	-0.053
237.0	-0.056
237.2	-0.058
237.4	-0.058
237.6	-0.052
237.8	-0.056
238.0	-0.060
238.2	-0.051
238.4	-0.048
238.6	-0.050
238.8	-0.046
239.0	-0.052
239.2	-0.055
239.4	-0.056
239.6	-0.045
239.8	-0.045
240.0	-0.045
240.2	-0.056
240.4	-0.055
240.6	-0.056
240.8	-0.063
241.0	-0.054
241.2	-0.051
241.4	-0.051
241.6	-0.055
241.8	-0.045
242.0	-0.045
242.2	-0.042
242.4	-0.050
242.6	-0.051
242.8	-0.058
243.0	-0.061
243.2	-0.046
243.4	-0.048
243.6	-0.054
243.8	-0.053
244.0	-0.054
244.2	-0.057
244.4	-0.060
244.6	-0.054
244.8	-0.046
245.0	-0.043
245.2	-0.043
245.4	-0.043
245.6	-0.040
245.8	-0.042
246.0	-0.049
246.2	-0.045
246.4	-0.047
246.6	-0.052
246.8	-0.049
247.0	-0.048
247.2	-0.052
247.4	-0.054
247.6	-0.053
247.8	-0.055
248.0	-0.052
248.2	-0.056
248.4	-0.057
248.6	-0.049
248.8	-0.048
249.0	-0.048
249.2	-0.045
249.4	-0.046
249.6	-0.046
249.8	-0.034
250.0	-0.038
250.2	-0.043
250.4	-0.038
250.6	-0.031
250.8	-0.028
251.0	-0.028
251.2	-0.035
251.4	-0.034
251.6	-0.044
251.8	-0.041
252.0	-0.053
252.2	-0.056
252.4	-0.054
252.6	-0.048
252.8	-0.049
253.0	-0.057
253.2	-0.052
253.4	-0.053
253.6	-0.058
253.8	-0.057
254.0	-0.049
254.2	-0.056
254.4	-0.046
254.6	-0.049
254.8	-0.054
255.0	-0.051
255.2	-0.050
255.4	-0.050
255.6	-0.049
255.8	-0.055
256.0	-0.041
256.2	-0.031
256.4	-0.039
256.6	-0.032
256.8	-0.023
257.0	-0.038
257.2	-0.039
257.4	-0.036
257.6	-0.031
257.8	-0.034
258.0	-0.036
258.2	-0.031
258.4	-0.039
258.6	-0.047
258.8	-0.048
259.0	-0.057
259.2	-0.055
259.4	-0.061
259.6	-0.054
259.8	-0.051
260.0	-0.050
260.2	-0.046
260.4	-0.046
260.6	-0.051
260.8	-0.046
261.0	-0.047
261.2	-0.051
261.4	-0.049
261.6	-0.053
261.8	-0.052
262.0	-0.053
262.2	-0.050
262.4	-0.054
262.6	-0.050
262.8	-0.053
263.0	-0.052
263.2	-0.047
263.4	-0.054
263.6	-0.054
263.8	-0.043
264.0	-0.036
264.2	-0.038
264.4	-0.044
264.6	-0.048
264.8	-0.043
265.0	-0.044
265.2	-0.047
265.4	-0.060
265.6	-0.050
265.8	-0.050
266.0	-0.049
266.2	-0.047
266.4	-0.042
266.6	-0.042
266.8	-0.038
267.0	-0.038
267.2	-0.033
267.4	-0.041
267.6	-0.041
267.8	-0.046
268.0	-0.043
268.2	-0.046
268.4	-0.042
268.6	-0.033
268.8	-0.025
269.0	-0.024
269.2	-0.032
269.4	-0.038
269.6	-0.034
269.8	-0.036
270.0	-0.043
270.2	-0.040
270.4	-0.044
270.6	-0.049
270.8	-0.050
271.0	-0.049
271.2	-0.041
271.4	-0.043
271.6	-0.044
271.8	-0.051
272.0	-0.049
272.2	-0.056
272.4	-0.045
272.6	-0.038
272.8	-0.036
273.0	-0.030
273.2	-0.031
273.4	-0.036
273.6	-0.026
273.8	-0.032
274.0	-0.037
274.2	-0.049
274.4	-0.050
274.6	-0.042
274.8	-0.035
275.0	-0.043
275.2	-0.046
275.4	-0.045
275.6	-0.042
275.8	-0.048
276.0	-0.052
276.2	-0.049
276.4	-0.048
276.6	-0.047
276.8	-0.047
277.0	-0.031
277.2	-0.035
277.4	-0.032
277.6	-0.026
277.8	-0.041
278.0	-0.045
278.2	-0.041
278.4	-0.038
278.6	-0.035
278.8	-0.043
279.0	-0.047
279.2	-0.041
279.4	-0.041
279.6	-0.048
279.8	-0.046
280.0	-0.049
280.2	-0.055
280.4	-0.041
280.6	-0.052
280.8	-0.053
281.0	-0.047
281.2	-0.049
281.4	-0.045
281.6	-0.050
281.8	-0.043
282.0	-0.050
282.2	-0.048
282.4	-0.045
282.6	-0.044
282.8	-0.045
283.0	-0.041
283.2	-0.055
283.4	-0.051
283.6	-0.052
283.8	-0.055
284.0	-0.045
284.2	-0.051
284.4	-0.050
284.6	-0.051
284.8	-0.041
285.0	-0.040
285.2	-0.024
285.4	-0.037
285.6	-0.041
285.8	-0.045
286.0	-0.039
286.2	-0.046
286.4	-0.040
286.6	-0.039
286.8	-0.047
287.0	-0.045
287.2	-0.044
287.4	-0.049
287.6	-0.048
287.8	-0.050
288.0	-0.048
288.2	-0.057
288.4	-0.056
288.6	-0.039
288.8	-0.038
289.0	-0.033
289.2	-0.047
289.4	-0.053
289.6	-0.051
289.8	-0.048
290.0	-0.044
290.2	-0.045
290.4	-0.050
290.6	-0.042
290.8	-0.037
291.0	-0.040
291.2	-0.040
291.4	-0.039
291.6	-0.035
291.8	-0.043
292.0	-0.041
292.2	-0.044
292.4	-0.057
292.6	-0.054
292.8	-0.050
293.0	-0.052
293.2	-0.051
293.4	-0.045
293.6	-0.050
293.8	-0.047
294.0	-0.040
294.2	-0.040
294.4	-0.051
294.6	-0.055
294.8	-0.042
295.0	-0.057
295.2	-0.054
295.4	-0.058
295.6	-0.050
295.8	-0.051
296.0	-0.048
296.2	-0.052
296.4	-0.042
296.6	-0.045
296.8	-0.048
297.0	-0.053
297.2	-0.057
297.4	-0.064
297.6	-0.056
297.8	-0.058
298.0	-0.055
298.2	-0.064
298.4	-0.056
298.6	-0.052
298.8	-0.064
299.0	-0.057
299.2	-0.054
299.4	-0.053
299.6	-0.059
299.8	-0.043
300.0	-0.046
300.2	-0.047
300.4	-0.050
300.6	-0.042
300.8	-0.054
301.0	-0.046
301.2	-0.048
301.4	-0.057
301.6	-0.054
301.8	-0.066
302.0	-0.060
302.2	-0.055
302.4	-0.047
302.6	-0.052
302.8	-0.055
303.0	-0.055
303.2	-0.059
303.4	-0.057
303.6	-0.045
303.8	-0.055
304.0	-0.053
304.2	-0.050
304.4	-0.035
304.6	-0.045
304.8	-0.053
305.0	-0.058
305.2	-0.063
305.4	-0.052
305.6	-0.048
305.8	-0.035
306.0	-0.045
306.2	-0.043
306.4	-0.046
306.6	-0.044
306.8	-0.041
307.0	-0.053
307.2	-0.051
307.4	-0.045
307.6	-0.047
307.8	-0.052
308.0	-0.048
308.2	-0.050
308.4	-0.050
308.6	-0.048
308.8	-0.048
309.0	-0.044
309.2	-0.053
309.4	-0.055
309.6	-0.051
309.8	-0.055
310.0	-0.059
310.2	-0.055
310.4	-0.054
310.6	-0.054
310.8	-0.050
311.0	-0.044
311.2	-0.042
311.4	-0.040
311.6	-0.040
311.8	-0.047
312.0	-0.046
312.2	-0.051
312.4	-0.053
312.6	-0.052
312.8	-0.050
313.0	-0.052
313.2	-0.056
313.4	-0.061
313.6	-0.043
313.8	-0.055
314.0	-0.042
314.2	-0.047
314.4	-0.055
314.6	-0.054
314.8	-0.051
315.0	-0.052
315.2	-0.053
315.4	-0.053
315.6	-0.041
315.8	-0.047
316.0	-0.042
316.2	-0.055
316.4	-0.053
316.6	-0.053
316.8	-0.056
317.0	-0.049
317.2	-0.054
317.4	-0.054
317.6	-0.048
317.8	-0.056
318.0	-0.049
318.2	-0.034
318.4	-0.041
318.6	-0.044
318.8	-0.040
319.0	-0.034
319.2	-0.041
319.4	-0.035
319.6	-0.045
319.8	-0.050
320.0	-0.052
320.2	-0.040
320.4	-0.052
320.6	-0.049
320.8	-0.056
321.0	-0.062
321.2	-0.054
321.4	-0.059
321.6	-0.059
321.8	-0.053
322.0	-0.047
322.2	-0.051
322.4	-0.060
322.6	-0.067
322.8	-0.059
323.0	-0.051
323.2	-0.041
323.4	-0.035
323.6	-0.040
323.8	-0.036
324.0	-0.019
324.2	-0.036
324.4	-0.036
324.6	-0.047
324.8	-0.039
325.0	-0.036
325.2	-0.046
325.4	-0.053
325.6	-0.041
325.8	-0.047
326.0	-0.042
326.2	-0.041
326.4	-0.040
326.6	-0.031
326.8	-0.037
327.0	-0.042
327.2	-0.037
327.4	-0.045
327.6	-0.052
327.8	-0.054
328.0	-0.066
328.2	-0.054
328.4	-0.046
328.6	-0.033
328.8	-0.041
329.0	-0.048
329.2	-0.045
329.4	-0.040
329.6	-0.046
329.8	-0.044
330.0	-0.047
330.2	-0.046
330.4	-0.044
330.6	-0.046
330.8	-0.049
331.0	-0.047
331.2	-0.049
331.4	-0.039
331.6	-0.040
331.8	-0.040
332.0	-0.039
332.2	-0.043
332.4	-0.041
332.6	-0.035
332.8	-0.031
333.0	-0.030
333.2	-0.039
333.4	-0.049
333.6	-0.040
333.8	-0.046
334.0	-0.036
334.2	-0.044
334.4	-0.053
334.6	-0.049
334.8	-0.047
335.0	-0.055
335.2	-0.048
335.4	-0.044
335.6	-0.037
335.8	-0.042
336.0	-0.040
336.2	-0.040
336.4	-0.049
336.6	-0.046
336.8	-0.044
337.0	-0.034
337.2	-0.036
337.4	-0.037
337.6	-0.036
337.8	-0.038
338.0	-0.042
338.2	-0.048
338.4	-0.041
338.6	-0.030
338.8	-0.026
339.0	-0.031
339.2	-0.028
339.4	-0.035
339.6	-0.034
339.8	-0.042
340.0	-0.043
340.2	-0.045
340.4	-0.038
340.6	-0.035
340.8	-0.034
341.0	-0.035
341.2	-0.031
341.4	-0.031
341.6	-0.037
341.8	-0.040
342.0	-0.033
342.2	-0.027
342.4	-0.024
342.6	-0.038
342.8	-0.028
343.0	-0.040
343.2	-0.039
343.4	-0.048
343.6	-0.042
343.8	-0.047
344.0	-0.044
344.2	-0.047
344.4	-0.044
344.6	-0.037
344.8	-0.045
345.0	-0.036
345.2	-0.030
345.4	-0.029
345.6	-0.030
345.8	-0.036
346.0	-0.028
346.2	-0.017
346.4	-0.024
346.6	-0.032
346.8	-0.043
347.0	-0.043
347.2	-0.037
347.4	-0.029
347.6	-0.032
347.8	-0.029
348.0	-0.042
348.2	-0.040
348.4	-0.036
348.6	-0.037
348.8	-0.040
349.0	-0.030
349.2	-0.035
349.4	-0.034
349.6	-0.030
349.8	-0.036
350.0	-0.042
350.2	-0.043
350.4	-0.038
350.6	-0.033
350.8	-0.028
351.0	-0.029
351.2	-0.032
351.4	-0.032
351.6	-0.034
351.8	-0.040
352.0	-0.036
352.2	-0.030
352.4	-0.035
352.6	-0.038
352.8	-0.041
353.0	-0.037
353.2	-0.032
353.4	-0.031
353.6	-0.042
353.8	-0.039
354.0	-0.039
354.2	-0.034
354.4	-0.032
354.6	-0.032
354.8	-0.027
355.0	-0.025
355.2	-0.019
355.4	-0.029
355.6	-0.033
355.8	-0.047
356.0	-0.049
356.2	-0.044
356.4	-0.037
356.6	-0.030
356.8	-0.037
357.0	-0.020
357.2	-0.023
357.4	-0.024
357.6	-0.032
357.8	-0.031
358.0	-0.043
358.2	-0.048
358.4	-0.036
358.6	-0.030
358.8	-0.022
359.0	-0.024
359.2	-0.026
359.4	-0.034
359.6	-0.044
359.8	-0.045
360.0	-0.043
360.2	-0.041
360.4	-0.037
360.6	-0.041
360.8	-0.037
361.0	-0.033
361.2	-0.031
361.4	-0.038
361.6	-0.039
361.8	-0.043
362.0	-0.047
362.2	-0.050
362.4	-0.044
362.6	-0.037
362.8	-0.042
363.0	-0.050
363.2	-0.061
363.4	-0.061
363.6	-0.054
363.8	-0.050
364.0	-0.050
364.2	-0.053
364.4	-0.045
364.6	-0.043
364.8	-0.040
365.0	-0.038
365.2	-0.037
365.4	-0.042
365.6	-0.043
365.8	-0.040
366.0	-0.043
366.2	-0.039
366.4	-0.037
366.6	-0.039
366.8	-0.042
367.0	-0.044
367.2	-0.058
367.4	-0.063
367.6	-0.051
367.8	-0.048
368.0	-0.038
368.2	-0.038
368.4	-0.045
368.6	-0.044
368.8	-0.048
369.0	-0.042
369.2	-0.046
369.4	-0.048
369.6	-0.054
369.8	-0.047
370.0	-0.043
370.2	-0.045
370.4	-0.040
370.6	-0.043
370.8	-0.039
371.0	-0.043
371.2	-0.047
371.4	-0.048
371.6	-0.049
371.8	-0.058
372.0	-0.054
372.2	-0.053
372.4	-0.047
372.6	-0.043
372.8	-0.040
373.0	-0.044
373.2	-0.045
373.4	-0.047
373.6	-0.049
373.8	-0.045
374.0	-0.037
374.2	-0.032
374.4	-0.040
374.6	-0.041
374.8	-0.036
375.0	-0.037
375.2	-0.038
375.4	-0.023
375.6	-0.023
375.8	-0.027
376.0	-0.022
376.2	-0.023
376.4	-0.021
376.6	-0.024
376.8	-0.022
377.0	-0.020
377.2	-0.034
377.4	-0.028
377.6	-0.033
377.8	-0.035
378.0	-0.036
378.2	-0.029
378.4	-0.029
378.6	-0.028
378.8	-0.029
379.0	-0.020
379.2	-0.031
379.4	-0.025
379.6	-0.022
379.8	-0.027
380.0	-0.024
380.2	-0.021
380.4	-0.028
380.6	-0.030
380.8	-0.033
381.0	-0.037
381.2	-0.046
381.4	-0.052
381.6	-0.047
381.8	-0.037
382.0	-0.036
382.2	-0.041
382.4	-0.037
382.6	-0.046
382.8	-0.034
383.0	-0.041
383.2	-0.034
383.4	-0.032
383.6	-0.040
383.8	-0.032
384.0	-0.034
384.2	-0.038
384.4	-0.048
384.6	-0.056
384.8	-0.043
385.0	-0.042
385.2	-0.044
385.4	-0.046
385.6	-0.044
385.8	-0.044
386.0	-0.039
386.2	-0.031
386.4	-0.042
386.6	-0.036
386.8	-0.037
387.0	-0.048
387.2	-0.037
387.4	-0.045
387.6	-0.042
387.8	-0.049
388.0	-0.046
388.2	-0.044
388.4	-0.044
388.6	-0.043
388.8	-0.031
389.0	-0.042
389.2	-0.048
389.4	-0.050
389.6	-0.051
389.8	-0.058
390.0	-0.061
390.2	-0.049
390.4	-0.043
390.6	-0.039
390.8	-0.038
391.0	-0.036
391.2	-0.047
391.4	-0.040
391.6	-0.032
391.8	-0.035
392.0	-0.040
392.2	-0.034
392.4	-0.041
392.6	-0.046
392.8	-0.033
393.0	-0.034
393.2	-0.037
393.4	-0.031
393.6	-0.025
393.8	-0.019
394.0	-0.021
394.2	-0.021
394.4	-0.030
394.6	-0.020
394.8	-0.029
395.0	-0.028
395.2	-0.032
395.4	-0.024
395.6	-0.035
395.8	-0.034
396.0	-0.037
396.2	-0.040
396.4	-0.037
396.6	-0.031
396.8	-0.030
397.0	-0.032
397.2	-0.038
397.4	-0.042
397.6	-0.037
397.8	-0.039
398.0	-0.040
398.2	-0.037
398.4	-0.042
398.6	-0.031
398.8	-0.020
399.0	-0.032
399.2	-0.025
399.4	-0.023
399.6	-0.034
399.8	-0.040
400.0	-0.042
400.2	-0.041
400.4	-0.041
400.6	-0.055
400.8	-0.054
401.0	-0.059
401.2	-0.052
401.4	-0.054
401.6	-0.050
401.8	-0.054
402.0	-0.046
402.2	-0.048
402.4	-0.028
402.6	-0.046
402.8	-0.036
403.0	-0.036
403.2	-0.030
403.4	-0.039
403.6	-0.044
403.8	-0.042
404.0	-0.043
404.2	-0.043
404.4	-0.046
404.6	-0.043
404.8	-0.037
405.0	-0.035
405.2	-0.038
405.4	-0.045
405.6	-0.053
405.8	-0.046
406.0	-0.048
406.2	-0.043
406.4	-0.046
406.6	-0.039
406.8	-0.037
407.0	-0.036
407.2	-0.036
407.4	-0.036
407.6	-0.041
407.8	-0.048
408.0	-0.047
408.2	-0.044
408.4	-0.045
408.6	-0.044
408.8	-0.038
409.0	-0.041
409.2	-0.044
409.4	-0.056
409.6	-0.048
409.8	-0.051
410.0	-0.049
410.2	-0.060
410.4	-0.058
410.6	-0.059
410.8	-0.054
411.0	-0.038
411.2	-0.031
411.4	-0.037
411.6	-0.034
411.8	-0.037
412.0	-0.040
412.2	-0.035
412.4	-0.034
412.6	-0.030
412.8	-0.029
413.0	-0.034
413.2	-0.029
413.4	-0.027
413.6	-0.032
413.8	-0.021
414.0	-0.014
414.2	-0.010
414.4	-0.005
414.6	-0.005
414.8	-0.015
415.0	-0.009
415.2	-0.002
415.4	0.007
415.6	0.000
415.8	0.005
416.0	0.022
416.2	0.015
416.4	0.023
416.6	0.032
416.8	0.047
417.0	0.048
417.2	0.061
417.4	0.088
417.6	0.109
417.8	0.142
418.0	0.160
418.2	0.172
418.4	0.196
418.6	0.238
418.8	0.285
419.0	0.308
419.2	0.332
419.4	0.366
419.6	0.422
419.8	0.463
420.0	0.496
420.2	0.512
420.4	0.583
420.6	0.615
420.8	0.667
421.0	0.754
421.2	0.807
421.4	0.890
421.6	0.961
421.8	1.002
422.0	1.087
422.2	1.161
422.4	1.258
422.6	1.360
422.8	1.455
423.0	1.563
423.2	1.689
423.4	1.797
423.6	2.021
423.8	2.156
424.0	2.297
424.2	2.419
424.4	2.533
424.6	2.759
424.8	2.904
425.0	3.124
425.2	3.254
425.4	3.481
425.6	3.687
425.8	3.873
426.0	4.094
426.2	4.290
426.4	4.494
426.6	4.733
426.8	5.019
427.0	5.170
427.2	5.357
427.4	5.620
427.6	5.854
427.8	6.156
428.0	6.420
428.2	6.573
428.4	6.785
428.6	6.958
428.8	7.260
429.0	7.427
429.2	7.667
429.4	7.939
429.6	8.210
429.8	8.371
430.0	8.662
430.2	8.831
430.4	9.030
430.6	9.213
430.8	9.401
431.0	9.597
431.2	9.771
431.4	9.901
431.6	10.02
431.8	10.18
432.0	10.40
432.2	10.51
432.4	10.51
432.6	10.70
432.8	10.93
433.0	10.98
433.2	10.85
433.4	10.85
433.6	11.06
433.8	11.25
434.0	11.47
434.2	11.50
434.4	11.64
434.6	11.78
434.8	11.80
435.0	11.84
435.2	11.91
435.4	12.04
435.6	12.24
435.8	12.23
436.0	12.38
436.2	12.42
436.4	12.53
436.6	12.60
436.8	12.68
437.0	12.76
437.2	12.79
437.4	12.80
437.6	12.88
437.8	12.92
438.0	12.95
438.2	12.98
438.4	13.14
438.6	13.20
438.8	13.23
439.0	13.36
439.2	13.31
439.4	13.29
439.6	13.22
439.8	13.21
440.0	13.34
440.2	13.29
440.4	13.38
440.6	13.42
440.8	13.43
441.0	13.38
441.2	13.41
441.4	13.58
441.6	13.50
441.8	13.40
442.0	13.49
442.2	13.40
442.4	13.45
442.6	13.41
442.8	13.34
443.0	13.32
443.2	13.30
443.4	13.33
443.6	13.37
443.8	13.30
444.0	13.30
444.2	13.33
444.4	13.39
444.6	13.42
444.8	13.27
445.0	13.23
445.2	13.26
445.4	13.10
445.6	13.02
445.8	13.00
446.0	12.91
446.2	12.99
446.4	12.95
446.6	12.93
446.8	12.89
447.0	12.86
447.2	12.77
447.4	12.77
447.6	12.77
447.8	12.70
448.0	12.69
448.2	12.68
448.4	12.74
448.6	12.69
448.8	12.64
449.0	12.58
449.2	12.63
449.4	12.53
449.6	12.39
449.8	12.34
450.0	12.34
450.2	12.33
450.4	12.33
450.6	12.22
450.8	12.16
451.0	12.03
451.2	12.03
451.4	12.03
451.6	12.05
451.8	11.91
452.0	11.90
452.2	11.88
452.4	11.73
452.6	11.72
452.8	11.64
453.0	11.57
453.2	11.55
453.4	11.41
453.6	11.39
453.8	11.20
454.0	11.29
454.2	11.17
454.4	11.13
454.6	11.18
454.8	11.12
455.0	11.06
455.2	10.98
455.4	10.95
455.6	10.88
455.8	10.81
456.0	10.71
456.2	10.59
456.4	10.63
456.6	10.63
456.8	10.54
457.0	10.60
457.2	10.56
457.4	10.45
457.6	10.40
457.8	10.35
458.0	10.31
458.2	10.38
458.4	10.39
458.6	10.43
458.8	10.40
459.0	10.58
459.2	10.61
459.4	10.58
459.6	10.59
459.8	10.56
460.0	10.43
460.2	10.44
460.4	10.43
460.6	10.47
460.8	10.39
461.0	10.52
461.2	10.50
461.4	10.39
461.6	10.27
461.8	10.26
462.0	10.34
462.2	10.29
462.4	10.27
462.6	10.16
462.8	10.18
463.0	10.15
463.2	10.19
463.4	10.13
463.6	10.08
463.8	10.05
464.0	10.06
464.2	9.967
464.4	9.922
464.6	9.973
464.8	10.01
465.0	9.843
465.2	9.862
465.4	9.805
465.6	9.788
465.8	9.753
466.0	9.708
466.2	9.723
466.4	9.761
466.6	9.724
466.8	9.768
467.0	9.927
467.2	9.927
467.4	9.945
467.6	9.900
467.8	9.935
468.0	9.917
468.2	9.955
468.4	9.881
468.6	9.860
468.8	9.751
469.0	9.756
469.2	9.666
469.4	9.593
469.6	9.594
469.8	9.567
470.0	9.539
470.2	9.474
470.4	9.365
470.6	9.324
470.8	9.172
471.0	9.176
471.2	9.172
471.4	9.072
471.6	8.948
471.8	8.808
472.0	8.760
472.2	8.524
472.4	8.480
472.6	8.393
472.8	8.343
473.0	8.149
473.2	8.030
473.4	7.964
473.6	7.917
473.8	7.803
474.0	7.642
474.2	7.542
474.4	7.429
474.6	7.346
474.8	7.241
475.0	7.301
475.2	7.280
475.4	7.196
475.6	7.082
475.8	6.997
476.0	6.871
476.2	6.793
476.4	6.722
476.6	6.727
476.8	6.636
477.0	6.621
477.2	6.607
477.4	6.520
477.6	6.416
477.8	6.354
478.0	6.275
478.2	6.181
478.4	6.169
478.6	6.207
478.8	6.246
479.0	6.224
479.2	6.188
479.4	6.129
479.6	6.023
479.8	6.030
480.0	6.019
480.2	6.108
480.4	6.149
480.6	6.101
480.8	6.076
481.0	6.123
481.2	6.167
481.4	6.102
481.6	6.088
481.8	6.081
482.0	6.069
482.2	6.042
482.4	6.081
482.6	6.052
482.8	6.061
483.0	6.006
483.2	5.956
483.4	5.924
483.6	5.986
483.8	5.984
484.0	5.918
484.2	5.889
484.4	5.867
484.6	5.842
484.8	5.798
485.0	5.729
485.2	5.772
485.4	5.767
485.6	5.714
485.8	5.644
486.0	5.645
486.2	5.533
486.4	5.563
486.6	5.505
486.8	5.437
487.0	5.447
487.2	5.451
487.4	5.460
487.6	5.386
487.8	5.341
488.0	5.304
488.2	5.364
488.4	5.423
488.6	5.401
488.8	5.299
489.0	5.288
489.2	5.276
489.4	5.332
489.6	5.313
489.8	5.362
490.0	5.315
490.2	5.340
490.4	5.372
490.6	5.338
490.8	5.403
491.0	5.420
491.2	5.409
491.4	5.408
491.6	5.388
491.8	5.325
492.0	5.366
492.2	5.391
492.4	5.443
492.6	5.389
492.8	5.368
493.0	5.331
493.2	5.411
493.4	5.313
493.6	5.481
493.8	5.436
494.0	5.459
494.2	5.335
494.4	5.267
494.6	5.204
494.8	5.162
495.0	5.126
495.2	5.090
495.4	5.053
495.6	5.092
495.8	5.094
496.0	5.044
496.2	4.950
496.4	4.955
496.6	4.954
496.8	4.889
497.0	4.868
497.2	4.811
497.4	4.767
497.6	4.727
497.8	4.706
498.0	4.681
498.2	4.641
498.4	4.634
498.6	4.632
498.8	4.642
499.0	4.567
499.2	4.624
499.4	4.554
499.6	4.520
499.8	4.513
500.0	4.487
500.2	4.523
500.4	4.507
500.6	4.531
500.8	4.560
501.0	4.537
501.2	4.466
501.4	4.444
501.6	4.442
501.8	4.455
502.0	4.490
502.2	4.464
502.4	4.588
502.6	4.523
502.8	4.548
503.0	4.583
503.2	4.551
503.4	4.504
503.6	4.521
503.8	4.537
504.0	4.564
504.2	4.556
504.4	4.513
504.6	4.512
504.8	4.495
505.0	4.480
505.2	4.488
505.4	4.528
505.6	4.549
505.8	4.582
506.0	4.565
506.2	4.635
506.4	4.615
506.6	4.636
506.8	4.662
507.0	4.598
507.2	4.603
507.4	4.625
507.6	4.605
507.8	4.569
508.0	4.602
508.2	4.637
508.4	4.584
508.6	4.585
508.8	4.558
509.0	4.627
509.2	4.662
509.4	4.691
509.6	4.712
509.8	4.679
510.0	4.640
510.2	4.659
510.4	4.673
510.6	4.657
510.8	4.619
511.0	4.561
511.2	4.554
511.4	4.563
511.6	4.609
511.8	4.591
512.0	4.660
512.2	4.669
512.4	4.658
512.6	4.603
512.8	4.553
513.0	4.531
513.2	4.497
513.4	4.470
513.6	4.407
513.8	4.370
514.0	4.388
514.2	4.402
514.4	4.386
514.6	4.384
514.8	4.420
515.0	4.417
515.2	4.379
515.4	4.335
515.6	4.243
515.8	4.228
516.0	4.247
516.2	4.227
516.4	4.163
516.6	4.160
516.8	4.150
517.0	4.193
517.2	4.087
517.4	4.073
517.6	4.070
517.8	4.092
518.0	4.120
518.2	4.060
518.4	4.092
518.6	4.078
518.8	4.138
519.0	4.071
519.2	4.076
519.4	4.072
519.6	4.027
519.8	4.003
520.0	4.064
520.2	3.982
520.4	4.005
520.6	3.979
520.8	3.910
521.0	3.928
521.2	3.958
521.4	4.046
521.6	4.053
521.8	4.110
522.0	4.008
522.2	3.986
522.4	4.071
522.6	4.141
522.8	4.099
523.0	4.171
523.2	4.212
523.4	4.243
523.6	4.317
523.8	4.277
524.0	4.320
524.2	4.346
524.4	4.429
524.6	4.431
524.8	4.517
525.0	4.532
525.2	4.515
525.4	4.605
525.6	4.706
525.8	4.766
526.0	4.819
526.2	4.913
526.4	4.984
526.6	5.048
526.8	5.088
527.0	5.161
527.2	5.282
527.4	5.348
527.6	5.430
527.8	5.438
528.0	5.472
528.2	5.641
528.4	5.804
528.6	5.892
528.8	5.996
529.0	6.154
529.2	6.276
529.4	6.446
529.6	6.537
529.8	6.669
530.0	6.778
530.2	7.015
530.4	7.247
530.6	7.415
530.8	7.485
531.0	7.526
531.2	7.633
531.4	7.901
531.6	8.117
531.8	8.365
532.0	8.482
532.2	8.628
532.4	8.812
532.6	8.978
532.8	9.097
533.0	9.371
533.2	9.529
533.4	9.602
533.6	9.700
533.8	9.819
534.0	10.04
534.2	10.11
534.4	10.25
534.6	10.37
534.8	10.39
535.0	10.52
535.2	10.53
535.4	10.48
535.6	10.55
535.8	10.56
536.0	10.61
536.2	10.61
536.4	10.43
536.6	10.44
536.8	10.50
537.0	10.40
537.2	10.47
537.4	10.42
537.6	10.37
537.8	10.25
538.0	10.12
538.2	10.09
538.4	10.04
538.6	9.926
538.8	9.864
539.0	9.852
539.2	9.754
539.4	9.625
539.6	9.463
539.8	9.493
540.0	9.306
540.2	9.170
540.4	9.070
540.6	9.039
540.8	9.035
541.0	8.933
541.2	8.890
541.4	8.767
541.6	8.610
541.8	8.477
542.0	8.327
542.2	8.230
542.4	8.184
542.6	7.995
542.8	7.860
543.0	7.756
543.2	7.650
543.4	7.425
543.6	7.286
543.8	7.044
544.0	6.875
544.2	6.743
544.4	6.552
544.6	6.367
544.8	6.288
545.0	6.112
545.2	5.939
545.4	5.756
545.6	5.550
545.8	5.455
546.0	5.354
546.2	5.234
546.4	5.084
546.6	4.963
546.8	4.910
547.0	4.821
547.2	4.744
547.4	4.609
547.6	4.581
547.8	4.513
548.0	4.425
548.2	4.454
548.4	4.396
548.6	4.309
548.8	4.259
549.0	4.358
549.2	4.434
549.4	4.468
549.6	4.475
549.8	4.554
550.0	4.571
550.2	4.643
550.4	4.765
550.6	4.923
550.8	4.963
551.0	5.051
551.2	5.180
551.4	5.254
551.6	5.418
551.8	5.581
552.0	5.644
552.2	5.787
552.4	5.978
552.6	5.970
552.8	6.064
553.0	6.198
553.2	6.400
553.4	6.475
553.6	6.524
553.8	6.601
554.0	6.754
554.2	6.822
554.4	6.907
554.6	6.988
554.8	7.160
555.0	7.146
555.2	7.276
555.4	7.257
555.6	7.299
555.8	7.282
556.0	7.208
556.2	7.207
556.4	7.223
556.6	7.126
556.8	7.136
557.0	6.977
557.2	6.936
557.4	6.891
557.6	6.831
557.8	6.740
558.0	6.707
558.2	6.624
558.4	6.603
558.6	6.574
558.8	6.529
559.0	6.571
559.2	6.529
559.4	6.424
559.6	6.285
559.8	6.193
560.0	6.141
560.2	6.115
560.4	6.088
560.6	5.986
560.8	6.070
561.0	5.989
561.2	5.853
561.4	5.892
561.6	5.787
561.8	5.750
562.0	5.776
562.2	5.727
562.4	5.659
562.6	5.626
562.8	5.576
563.0	5.508
563.2	5.421
563.4	5.457
563.6	5.472
563.8	5.411
564.0	5.406
564.2	5.299
564.4	5.275
564.6	5.160
564.8	5.142
565.0	5.136
565.2	5.035
565.4	5.013
565.6	5.017
565.8	4.952
566.0	5.003
566.2	5.038
566.4	5.049
566.6	5.043
566.8	5.022
567.0	4.929
567.2	4.980
567.4	5.045
567.6	5.028
567.8	4.983
568.0	5.004
568.2	5.002
568.4	5.062
568.6	5.151
568.8	5.293
569.0	5.330
569.2	5.412
569.4	5.480
569.6	5.626
569.8	5.818
570.0	6.008
570.2	6.107
570.4	6.244
570.6	6.524
570.8	6.753
571.0	7.109
571.2	7.466
571.4	7.783
571.6	8.179
571.8	8.780
572.0	9.336
572.2	9.967
572.4	10.74
572.6	11.63
572.8	12.52
573.0	13.52
573.2	14.68
573.4	15.85
573.6	17.36
573.8	18.92
574.0	20.75
574.2	22.75
574.4	24.75
574.6	26.95
574.8	29.30
575.0	32.07
575.2	34.92
575.4	37.85
575.6	41.16
575.8	44.10
576.0	47.11
576.2	50.47
576.4	53.68
576.6	56.92
576.8	60.33
577.0	63.72
577.2	67.21
577.4	70.32
577.6	73.66
577.8	76.49
578.0	79.09
578.2	82.00
578.4	84.79
578.6	87.30
578.8	89.13
579.0	91.26
579.2	92.79
579.4	94.09
579.6	95.14
579.8	96.15
580.0	97.12
580.2	97.56
580.4	97.72
580.6	97.91
580.8	97.75
581.0	97.97
581.2	97.93
581.4	98.19
581.6	98.46
581.8	98.93
582.0	99.52
582.2	100.4
582.4	101.7
582.6	103.3
582.8	105.1
583.0	107.0
583.2	109.5
583.4	112.4
583.6	115.4
583.8	118.6
584.0	122.2
584.2	125.8
584.4	129.6
584.6	133.8
584.8	138.6
585.0	143.3
585.2	148.7
585.4	153.9
585.6	159.2
585.8	164.7
586.0	169.8
586.2	175.4
586.4	181.1
586.6	186.6
586.8	192.0
587.0	197.0
587.2	202.4
587.4	207.4
587.6	212.0
587.8	216.2
588.0	221.1
588.2	225.8
588.4	229.8
588.6	233.8
588.8	237.7
589.0	240.4
589.2	243.7
589.4	248.1
589.6	251.7
589.8	254.6
590.0	257.8
590.2	259.9
590.4	262.2
590.6	263.9
590.8	264.8
591.0	266.3
591.2	267.5
591.4	268.0
591.6	268.9
591.8	269.2
592.0	270.0
592.2	270.1
592.4	269.6
592.6	269.0
592.8	268.1
593.0	266.9
593.2	266.2
593.4	265.5
593.6	264.0
593.8	262.7
594.0	261.4
594.2	259.9
594.4	257.7
594.6	255.7
594.8	253.4
595.0	251.7
595.2	249.9
595.4	247.6
595.6	245.9
595.8	244.5
596.0	242.9
596.2	241.0
596.4	238.5
596.6	235.9
596.8	234.4
597.0	232.2
597.2	229.9
597.4	227.7
597.6	225.9
597.8	223.1
598.0	220.3
598.2	217.6
598.4	214.8
598.6	211.5
598.8	208.3
599.0	205.0
599.2	201.6
599.4	197.8
599.6	193.8
599.8	190.1
600.0	186.0
600.2	181.4
600.4	177.0
600.6	172.9
600.8	168.4
601.0	163.3
601.2	158.1
601.4	153.3
601.6	148.1
601.8	143.7
602.0	139.1
602.2	134.7
602.4	130.2
602.6	125.5
602.8	121.3
603.0	117.5
603.2	114.3
603.4	110.8
603.6	107.8
603.8	105.3
604.0	103.4
604.2	102.1
604.4	101.1
604.6	100.3
604.8	100.1
605.0	100.7
605.2	101.6
605.4	103.4
605.6	105.9
605.8	109.1
606.0	113.4
606.2	117.9
606.4	123.8
606.6	130.4
606.8	137.5
607.0	146.3
607.2	156.3
607.4	167.7
607.6	181.0
607.8	195.5
608.0	210.4
608.2	227.0
608.4	243.9
608.6	262.7
608.8	284.4
609.0	306.6
609.2	331.4
609.4	356.4
609.6	382.9
609.8	410.0
610.0	437.7
610.2	465.5
610.4	495.9
610.6	524.9
610.8	558.3
611.0	588.7
611.2	621.2
611.4	652.0
611.6	681.1
611.8	711.0
612.0	741.8
612.2	771.2
612.4	800.7
612.6	827.9
612.8	854.1
613.0	876.9
613.2	899.3
613.4	919.9
613.6	938.6
613.8	955.3
614.0	971.8
614.2	982.8
614.4	993.5
614.6	 1003
614.8	 1010
615.0	 1015
615.2	 1020
615.4	 1022
615.6	 1023
615.8	 1021
616.0	 1021
616.2	 1019
616.4	 1016
616.6	 1012
616.8	 1008
617.0	 1001
617.2	996.3
617.4	990.5
617.6	982.5
617.8	974.3
618.0	966.1
618.2	958.6
618.4	949.5
618.6	940.3
618.8	930.2
619.0	920.3
619.2	909.9
619.4	898.9
619.6	889.8
619.8	878.6
620.0	866.9
620.2	856.0
620.4	844.7
620.6	833.0
620.8	820.6
621.0	807.1
621.2	793.5
621.4	780.3
621.6	766.9
621.8	754.1
622.0	739.2
622.2	725.7
622.4	711.1
622.6	695.9
622.8	681.3
623.0	667.3
623.2	653.1
623.4	637.9
623.6	622.3
623.8	608.0
624.0	594.1
624.2	579.4
624.4	565.8
624.6	552.5
624.8	539.0
625.0	525.2
625.2	512.8
625.4	499.7
625.6	486.8
625.8	474.9
626.0	462.4
626.2	449.7
626.4	436.9
626.6	424.8
626.8	412.0
627.0	400.2
627.2	387.1
627.4	375.1
627.6	363.2
627.8	352.4
628.0	340.6
628.2	329.1
628.4	317.5
628.6	305.8
628.8	294.2
629.0	282.8
629.2	271.9
629.4	260.5
629.6	249.1
629.8	238.2
630.0	227.3
630.2	217.0
630.4	206.6
630.6	197.0
630.8	187.7
631.0	178.2
631.2	169.3
631.4	161.1
631.6	152.6
631.8	144.7
632.0	137.4
632.2	130.6
632.4	124.1
632.6	118.1
632.8	112.2
633.0	106.6
633.2	101.0
633.4	96.29
633.6	91.83
633.8	87.48
634.0	83.73
634.2	79.62
634.4	76.29
634.6	72.79
634.8	69.71
635.0	66.56
635.2	63.57
635.4	61.08
635.6	58.65
635.8	56.28
636.0	54.20
636.2	52.37
636.4	50.44
636.6	48.96
636.8	47.25
637.0	45.97
637.2	44.62
637.4	43.16
637.6	41.89
637.8	40.73
638.0	39.77
638.2	38.77
638.4	37.79
638.6	36.88
638.8	36.08
639.0	35.20
639.2	34.42
639.4	33.57
639.6	32.88
639.8	32.21
640.0	31.59
640.2	30.70
640.4	30.28
640.6	29.76
640.8	29.16
641.0	28.70
641.2	28.17
641.4	27.93
641.6	27.56
641.8	26.96
642.0	26.57
642.2	26.33
642.4	25.90
642.6	25.52
642.8	25.36
643.0	25.28
643.2	25.02
643.4	24.70
643.6	24.58
643.8	24.51
644.0	24.33
644.2	23.98
644.4	23.88
644.6	23.85
644.8	23.62
645.0	23.75
645.2	23.74
645.4	23.86
645.6	24.06
645.8	24.28
646.0	24.52
646.2	24.84
646.4	24.99
646.6	25.29
646.8	25.70
647.0	26.01
647.2	26.43
647.4	26.95
647.6	27.48
647.8	28.03
648.0	28.58
648.2	28.94
648.4	29.42
648.6	30.17
648.8	30.97
649.0	31.56
649.2	32.35
649.4	33.18
649.6	34.03
649.8	34.85
650.0	35.65
650.2	36.39
650.4	37.39
650.6	37.88
650.8	38.87
651.0	39.49
651.2	40.29
651.4	41.14
651.6	41.68
651.8	42.31
652.0	43.07
652.2	43.56
652.4	44.28
652.6	44.78
652.8	45.40
653.0	45.63
653.2	45.89
653.4	46.22
653.6	46.71
653.8	46.81
654.0	47.36
654.2	47.46
654.4	47.71
654.6	47.86
654.8	47.70
655.0	47.75
655.2	47.41
655.4	47.10
655.6	46.85
655.8	46.68
656.0	46.36
656.2	46.01
656.4	45.45
656.6	44.95
656.8	44.36
657.0	43.72
657.2	42.99
657.4	42.22
657.6	41.48
657.8	40.40
658.0	39.47
658.2	38.56
658.4	37.67
658.6	36.63
658.8	35.48
659.0	34.46
659.2	33.31
659.4	32.17
659.6	30.82
659.8	29.66
660.0	28.31
660.2	27.19
660.4	26.11
660.6	25.12
660.8	24.04
661.0	22.95
661.2	21.97
661.4	20.96
661.6	19.94
661.8	19.01
662.0	18.06
662.2	17.15
662.4	16.34
662.6	15.55
662.8	14.76
663.0	13.99
663.2	13.24
663.4	12.55
663.6	11.95
663.8	11.30
664.0	10.83
664.2	10.40
664.4	9.894
664.6	9.425
664.8	8.908
665.0	8.470
665.2	8.229
665.4	7.918
665.6	7.589
665.8	7.369
666.0	7.081
666.2	6.881
666.4	6.712
666.6	6.507
666.8	6.341
667.0	6.218
667.2	6.022
667.4	5.864
667.6	5.727
667.8	5.639
668.0	5.587
668.2	5.521
668.4	5.444
668.6	5.374
668.8	5.323
669.0	5.255
669.2	5.180
669.4	5.145
669.6	5.108
669.8	5.055
670.0	5.076
670.2	5.008
670.4	4.927
670.6	4.930
670.8	4.892
671.0	4.874
671.2	4.844
671.4	4.843
671.6	4.859
671.8	4.803
672.0	4.778
672.2	4.824
672.4	4.771
672.6	4.754
672.8	4.756
673.0	4.734
673.2	4.695
673.4	4.753
673.6	4.692
673.8	4.772
674.0	4.711
674.2	4.687
674.4	4.744
674.6	4.757
674.8	4.759
675.0	4.805
675.2	4.749
675.4	4.697
675.6	4.660
675.8	4.633
676.0	4.678
676.2	4.711
676.4	4.667
676.6	4.706
676.8	4.756
677.0	4.746
677.2	4.787
677.4	4.840
677.6	4.931
677.8	4.939
678.0	5.078
678.2	5.071
678.4	5.131
678.6	5.240
678.8	5.375
679.0	5.403
679.2	5.434
679.4	5.414
679.6	5.450
679.8	5.627
680.0	5.770
680.2	5.992
680.4	6.177
680.6	6.339
680.8	6.584
681.0	6.789
681.2	7.069
681.4	7.277
681.6	7.670
681.8	7.888
682.0	8.264
682.2	8.568
682.4	9.024
682.6	9.363
682.8	9.912
683.0	10.55
683.2	11.03
683.4	11.52
683.6	12.21
683.8	12.76
684.0	13.33
684.2	14.03
684.4	14.75
684.6	15.60
684.8	16.48
685.0	17.33
685.2	18.21
685.4	19.11
685.6	20.30
685.8	21.31
686.0	22.44
686.2	23.46
686.4	24.59
686.6	25.82
686.8	26.85
687.0	27.99
687.2	29.22
687.4	30.36
687.6	31.42
687.8	32.50
688.0	33.53
688.2	34.96
688.4	36.09
688.6	37.44
688.8	38.61
689.0	39.94
689.2	41.04
689.4	42.30
689.6	43.46
689.8	44.66
690.0	45.58
690.2	46.85
690.4	48.01
690.6	49.10
690.8	50.07
691.0	51.36
691.2	52.48
691.4	53.28
691.6	54.07
691.8	55.08
692.0	56.21
692.2	57.21
692.4	58.40
692.6	59.24
692.8	60.34
693.0	61.29
693.2	62.51
693.4	63.16
693.6	63.80
693.8	64.66
694.0	65.93
694.2	67.02
694.4	67.73
694.6	68.70
694.8	69.66
695.0	70.44
695.2	71.15
695.4	72.25
695.6	73.49
695.8	74.42
696.0	75.51
696.2	76.61
696.4	77.82
696.6	78.78
696.8	80.21
697.0	81.45
697.2	83.18
697.4	84.63
697.6	86.37
697.8	88.23
698.0	89.83
698.2	91.60
698.4	93.69
698.6	95.88
698.8	97.93
699.0	100.2
699.2	102.5
699.4	105.0
699.6	107.6
699.8	110.1
700.0	112.5
700.2	115.3
700.4	117.9
700.6	120.7
700.8	122.7
701.0	125.8
701.2	128.2
701.4	130.5
701.6	133.0
701.8	135.1
702.0	137.7
702.2	139.6
702.4	141.8
702.6	143.5
702.8	144.9
703.0	146.6
703.2	147.4
703.4	148.8
703.6	148.6
703.8	149.0
704.0	149.1
704.2	149.4
704.4	149.1
704.6	148.3
704.8	147.6
705.0	146.5
705.2	145.0
705.4	143.6
705.6	141.3
705.8	139.2
706.0	137.2
706.2	134.8
706.4	132.0
706.6	129.1
706.8	125.7
707.0	122.5
707.2	119.2
707.4	115.5
707.6	111.9
707.8	108.0
708.0	104.4
708.2	100.3
708.4	96.24
708.6	91.94
708.8	88.05
709.0	84.03
709.2	79.87
709.4	75.84
709.6	71.76
709.8	67.95
710.0	63.93
710.2	59.99
710.4	56.44
710.6	52.82
710.8	49.55
711.0	46.45
711.2	43.51
711.4	40.51
711.6	37.68
711.8	35.09
712.0	32.61
712.2	30.31
712.4	28.15
712.6	26.07
712.8	24.12
713.0	22.13
713.2	20.52
713.4	18.85
713.6	17.34
713.8	16.00
714.0	14.71
714.2	13.50
714.4	12.43
714.6	11.42
714.8	10.45
715.0	9.736
715.2	8.909
715.4	8.189
715.6	7.582
715.8	6.962
716.0	6.472
716.2	6.014
716.4	5.625
716.6	5.240
716.8	4.981
717.0	4.648
717.2	4.424
717.4	4.179
717.6	3.929
717.8	3.738
718.0	3.500
718.2	3.367
718.4	3.199
718.6	3.063
718.8	2.915
719.0	2.855
719.2	2.740
719.4	2.682
719.6	2.577
719.8	2.529
720.0	2.486
720.2	2.386
720.4	2.342
720.6	2.303
720.8	2.204
721.0	2.168
721.2	2.104
721.4	2.053
721.6	2.027
721.8	1.978
722.0	1.862
722.2	1.807
722.4	1.769
722.6	1.716
722.8	1.685
723.0	1.624
723.2	1.632
723.4	1.579
723.6	1.561
723.8	1.568
724.0	1.508
724.2	1.498
724.4	1.475
724.6	1.480
724.8	1.480
725.0	1.470
725.2	1.437
725.4	1.379
725.6	1.343
725.8	1.329
726.0	1.328
726.2	1.328
726.4	1.306
726.6	1.283
726.8	1.259
727.0	1.270
727.2	1.262
727.4	1.231
727.6	1.199
727.8	1.169
728.0	1.180
728.2	1.176
728.4	1.157
728.6	1.120
728.8	1.066
729.0	1.042
729.2	1.067
729.4	1.021
729.6	1.056
729.8	1.046
730.0	1.039
730.2	0.989
730.4	1.007
730.6	1.015
730.8	1.008
731.0	0.977
731.2	0.992
731.4	0.952
731.6	0.929
731.8	0.962
732.0	0.948
732.2	0.950
732.4	0.931
732.6	0.939
732.8	0.938
733.0	0.921
733.2	0.913
733.4	0.907
733.6	0.912
733.8	0.910
734.0	0.875
734.2	0.884
734.4	0.885
734.6	0.938
734.8	0.927
735.0	0.911
735.2	0.899
735.4	0.900
735.6	0.909
735.8	0.891
736.0	0.905
736.2	0.913
736.4	0.914
736.6	0.912
736.8	0.880
737.0	0.890
737.2	0.880
737.4	0.900
737.6	0.906
737.8	0.910
738.0	0.914
738.2	0.945
738.4	0.977
738.6	0.995
738.8	1.008
739.0	1.011
739.2	1.032
739.4	1.040
739.6	1.069
739.8	1.102
740.0	1.119
740.2	1.138
740.4	1.160
740.6	1.217
740.8	1.215
741.0	1.254
741.2	1.265
741.4	1.236
741.6	1.264
741.8	1.300
742.0	1.330
742.2	1.326
742.4	1.396
742.6	1.421
742.8	1.492
743.0	1.473
743.2	1.477
743.4	1.528
743.6	1.573
743.8	1.594
744.0	1.603
744.2	1.596
744.4	1.665
744.6	1.652
744.8	1.712
745.0	1.738
745.2	1.775
745.4	1.800
745.6	1.834
745.8	1.854
746.0	1.834
746.2	1.887
746.4	1.906
746.6	1.926
746.8	1.927
747.0	1.962
747.2	1.949
747.4	1.949
747.6	2.019
747.8	2.040
748.0	2.060
748.2	2.086
748.4	2.066
748.6	2.068
748.8	2.063
749.0	2.051
749.2	2.074
749.4	2.103
749.6	2.074
749.8	2.073
750.0	2.065
750.2	1.987
750.4	2.023
750.6	2.053
750.8	2.005
751.0	1.981
751.2	1.920
751.4	1.875
751.6	1.840
751.8	1.851
752.0	1.784
752.2	1.734
752.4	1.692
752.6	1.710
752.8	1.704
753.0	1.698
753.2	1.676
753.4	1.639
753.6	1.621
753.8	1.545
754.0	1.543
754.2	1.516
754.4	1.524
754.6	1.494
754.8	1.454
755.0	1.459
755.2	1.444
755.4	1.392
755.6	1.387
755.8	1.428
756.0	1.378
756.2	1.387
756.4	1.382
756.6	1.301
756.8	1.315
757.0	1.311
757.2	1.298
757.4	1.272
757.6	1.226
757.8	1.250
758.0	1.257
758.2	1.203
758.4	1.235
758.6	1.209
758.8	1.174
759.0	1.183
759.2	1.138
759.4	1.129
759.6	1.117
759.8	1.062
760.0	1.069
760.2	1.046
760.4	1.028
760.6	1.024
760.8	1.010
761.0	0.988
761.2	0.950
761.4	0.968
761.6	0.970
761.8	0.947
762.0	0.934
762.2	0.920
762.4	0.911
762.6	0.886
762.8	0.907
763.0	0.870
763.2	0.826
763.4	0.822
763.6	0.768
763.8	0.776
764.0	0.756
764.2	0.776
764.4	0.769
764.6	0.737
764.8	0.720
765.0	0.741
765.2	0.708
765.4	0.710
765.6	0.681
765.8	0.668
766.0	0.636
766.2	0.647
766.4	0.638
766.6	0.611
766.8	0.599
767.0	0.597
767.2	0.576
767.4	0.551
767.6	0.554
767.8	0.563
768.0	0.523
768.2	0.498
768.4	0.521
768.6	0.519
768.8	0.493
769.0	0.482
769.2	0.508
769.4	0.489
769.6	0.458
769.8	0.447
770.0	0.437
770.2	0.439
770.4	0.395
770.6	0.388
770.8	0.381
771.0	0.374
771.2	0.378
771.4	0.374
771.6	0.348
771.8	0.345
772.0	0.328
772.2	0.318
772.4	0.315
772.6	0.297
772.8	0.275
773.0	0.274
773.2	0.278
773.4	0.284
773.6	0.269
773.8	0.259
774.0	0.279
774.2	0.281
774.4	0.248
774.6	0.245
774.8	0.251
775.0	0.248
775.2	0.231
775.4	0.232
775.6	0.236
775.8	0.237
776.0	0.229
776.2	0.208
776.4	0.202
776.6	0.223
776.8	0.221
777.0	0.196
777.2	0.191
777.4	0.190
777.6	0.178
777.8	0.191
778.0	0.182
778.2	0.181
778.4	0.186
778.6	0.191
778.8	0.188
779.0	0.190
779.2	0.181
779.4	0.179
779.6	0.173
779.8	0.170
780.0	0.162
780.2	0.166
780.4	0.163
780.6	0.149
780.8	0.135
781.0	0.130
781.2	0.129
781.4	0.145
781.6	0.166
781.8	0.169
782.0	0.165
782.2	0.172
782.4	0.153
782.6	0.140
782.8	0.142
783.0	0.136
783.2	0.138
783.4	0.137
783.6	0.127
783.8	0.135
784.0	0.155
784.2	0.156
784.4	0.163
784.6	0.162
784.8	0.166
785.0	0.150
785.2	0.142
785.4	0.153
785.6	0.150
785.8	0.150
786.0	0.142
786.2	0.136
786.4	0.142
786.6	0.142
786.8	0.152
787.0	0.159
787.2	0.170
787.4	0.165
787.6	0.176
787.8	0.182
788.0	0.189
788.2	0.193
788.4	0.184
788.6	0.188
788.8	0.185
789.0	0.188
789.2	0.192
789.4	0.187
789.6	0.194
789.8	0.196
790.0	0.191
790.2	0.206
790.4	0.197
790.6	0.198
790.8	0.197
791.0	0.195
791.2	0.187
791.4	0.207
791.6	0.214
791.8	0.213
792.0	0.213
792.2	0.241
792.4	0.233
792.6	0.244
792.8	0.246
793.0	0.263
793.2	0.275
793.4	0.272
793.6	0.265
793.8	0.278
794.0	0.277
794.2	0.278
794.4	0.296
794.6	0.300
794.8	0.300
795.0	0.315
795.2	0.320
795.4	0.316
795.6	0.329
795.8	0.318
796.0	0.328
796.2	0.341
796.4	0.357
796.6	0.350
796.8	0.345
797.0	0.355
797.2	0.390
797.4	0.370
797.6	0.396
797.8	0.401
798.0	0.400
798.2	0.395
798.4	0.420
798.6	0.418
798.8	0.431
799.0	0.426
799.2	0.435
799.4	0.443
799.6	0.487
799.8	0.474
800.0	0.479
800.2	0.493
800.4	0.484
800.6	0.501
800.8	0.496
801.0	0.491
801.2	0.469
801.4	0.496
801.6	0.475
801.8	0.514
802.0	0.513
802.2	0.528
802.4	0.531
802.6	0.527
802.8	0.519
803.0	0.524
803.2	0.530
803.4	0.547
803.6	0.570
803.8	0.594
804.0	0.632
804.2	0.619
804.4	0.589
804.6	0.598
804.8	0.604
805.0	0.599
805.2	0.610
805.4	0.609
805.6	0.607
805.8	0.623
806.0	0.636
806.2	0.640
806.4	0.649
806.6	0.635
806.8	0.628
807.0	0.654
807.2	0.659
807.4	0.657
807.6	0.687
807.8	0.689
808.0	0.675
808.2	0.667
808.4	0.690
808.6	0.698
808.8	0.702
809.0	0.683
809.2	0.687
809.4	0.695
809.6	0.688
809.8	0.678
810.0	0.689
810.2	0.692
810.4	0.701
810.6	0.696
810.8	0.676
811.0	0.679
811.2	0.686
811.4	0.685
811.6	0.697
811.8	0.723
812.0	0.738
812.2	0.731
812.4	0.716
812.6	0.719
812.8	0.732
813.0	0.732
813.2	0.743
813.4	0.762
813.6	0.749
813.8	0.709
814.0	0.726
814.2	0.749
814.4	0.754
814.6	0.766
814.8	0.770
815.0	0.775
815.2	0.748
815.4	0.771
815.6	0.756
815.8	0.754
816.0	0.744
816.2	0.741
816.4	0.725
816.6	0.749
816.8	0.784
817.0	0.802
817.2	0.799
817.4	0.796
817.6	0.844
817.8	0.781
818.0	0.779
818.2	0.771
818.4	0.785
818.6	0.759
818.8	0.768
819.0	0.779
819.2	0.774
819.4	0.766
819.6	0.777
819.8	0.771
820.0	0.765
820.2	0.790
820.4	0.796
820.6	0.786
820.8	0.807
821.0	0.827
821.2	0.850
821.4	0.862
821.6	0.858
821.8	0.857
822.0	0.846
822.2	0.857
822.4	0.895
822.6	0.935
822.8	0.959
823.0	0.947
823.2	0.961
823.4	0.968
823.6	0.989
823.8	1.025
824.0	1.042
824.2	1.019
824.4	0.999
824.6	1.050
824.8	1.043
825.0	1.056
825.2	1.084
825.4	1.076
825.6	1.110
825.8	1.104
826.0	1.142
826.2	1.097
826.4	1.061
826.6	1.039
826.8	1.042
827.0	1.029
827.2	1.042
827.4	1.050
827.6	1.005
827.8	1.006
828.0	1.010
828.2	1.026
828.4	1.006
828.6	1.007
828.8	1.011
829.0	0.973
829.2	0.948
829.4	0.947
829.6	0.937
829.8	0.944
830.0	0.914
830.2	0.918
830.4	0.875
830.6	0.867
830.8	0.845
831.0	0.836
831.2	0.854
831.4	0.827
831.6	0.816
831.8	0.820
832.0	0.817
832.2	0.836
832.4	0.820
832.6	0.819
832.8	0.798
833.0	0.770
833.2	0.772
833.4	0.752
833.6	0.759
833.8	0.766
834.0	0.780
834.2	0.770
834.4	0.746
834.6	0.735
834.8	0.708
835.0	0.693
835.2	0.678
835.4	0.658
835.6	0.621
835.8	0.633
836.0	0.629
836.2	0.602
836.4	0.593
836.6	0.610
836.8	0.563
837.0	0.565
837.2	0.543
837.4	0.538
837.6	0.530
837.8	0.520
838.0	0.505
838.2	0.555
838.4	0.549
838.6	0.547
838.8	0.542
839.0	0.552
839.2	0.542
839.4	0.552
839.6	0.541
839.8	0.497
840.0	0.484
840.2	0.484
840.4	0.467
840.6	0.474
840.8	0.468
841.0	0.459
841.2	0.468
841.4	0.463
841.6	0.451
841.8	0.422
842.0	0.437
842.2	0.413
842.4	0.395
842.6	0.380
842.8	0.365
843.0	0.360
843.2	0.346
843.4	0.352
843.6	0.336
843.8	0.323
844.0	0.315
844.2	0.303
844.4	0.301
844.6	0.293
844.8	0.290
845.0	0.289
845.2	0.318
845.4	0.303
845.6	0.307
845.8	0.298
846.0	0.276
846.2	0.271
846.4	0.258
846.6	0.259
846.8	0.234
847.0	0.226
847.2	0.233
847.4	0.227
847.6	0.232
847.8	0.216
848.0	0.201
848.2	0.217
848.4	0.198
848.6	0.209
848.8	0.198
849.0	0.202
849.2	0.201
849.4	0.185
849.6	0.171
849.8	0.174
850.0	0.176
850.2	0.165
850.4	0.161
850.6	0.156
850.8	0.157
851.0	0.151
851.2	0.140
851.4	0.130
851.6	0.128
851.8	0.136
852.0	0.137
852.2	0.133
852.4	0.112
852.6	0.117
852.8	0.110
853.0	0.114
853.2	0.111
853.4	0.111
853.6	0.097
853.8	0.086
854.0	0.094
854.2	0.093
854.4	0.089
854.6	0.089
854.8	0.082
855.0	0.083
855.2	0.076
855.4	0.064
855.6	0.085
855.8	0.078
856.0	0.075
856.2	0.070
856.4	0.082
856.6	0.076
856.8	0.064
857.0	0.060
857.2	0.064
857.4	0.058
857.6	0.065
857.8	0.056
858.0	0.062
858.2	0.051
858.4	0.059
858.6	0.059
858.8	0.079
859.0	0.080
859.2	0.074
859.4	0.070
859.6	0.054
859.8	0.051
860.0	0.068
860.2	0.086
860.4	0.091
860.6	0.097
860.8	0.091
861.0	0.086
861.2	0.074
861.4	0.063
861.6	0.072
861.8	0.066
862.0	0.065
862.2	0.062
862.4	0.069
862.6	0.073
862.8	0.085
863.0	0.069
863.2	0.067
863.4	0.065
863.6	0.051
863.8	0.043
864.0	0.053
864.2	0.046
864.4	0.060
864.6	0.059
864.8	0.061
865.0	0.072
865.2	0.076
865.4	0.072
865.6	0.075
865.8	0.073
866.0	0.076
866.2	0.075
866.4	0.081
866.6	0.089
866.8	0.088
867.0	0.080
867.2	0.075
867.4	0.080
867.6	0.061
867.8	0.067
868.0	0.062
868.2	0.051
868.4	0.060
868.6	0.057
868.8	0.070
869.0	0.069
869.2	0.080
869.4	0.087
869.6	0.095
869.8	0.099
870.0	0.093
870.2	0.086
870.4	0.068
870.6	0.056
870.8	0.071
871.0	0.068
871.2	0.071
871.4	0.063
871.6	0.066
871.8	0.052
872.0	0.076
872.2	0.069
872.4	0.065
872.6	0.058
872.8	0.062
873.0	0.060
873.2	0.056
873.4	0.067
873.6	0.086
873.8	0.080
874.0	0.074
874.2	0.084
874.4	0.087
874.6	0.087
874.8	0.087
875.0	0.078
875.2	0.074
875.4	0.089
875.6	0.095
875.8	0.101
876.0	0.096
876.2	0.092
876.4	0.066
876.6	0.085
876.8	0.076
877.0	0.079
877.2	0.075
877.4	0.083
877.6	0.084
877.8	0.093
878.0	0.085
878.2	0.099
878.4	0.088
878.6	0.080
878.8	0.093
879.0	0.075
879.2	0.063
879.4	0.074
879.6	0.094
879.8	0.107
880.0	0.091
880.2	0.085
880.4	0.086
880.6	0.080
880.8	0.080
881.0	0.090
881.2	0.087
881.4	0.090
881.6	0.096
881.8	0.097
882.0	0.095
882.2	0.089
882.4	0.097
882.6	0.096
882.8	0.089
883.0	0.092
883.2	0.081
883.4	0.089
883.6	0.094
883.8	0.089
884.0	0.096
884.2	0.100
884.4	0.109
884.6	0.093
884.8	0.079
885.0	0.076
885.2	0.079
885.4	0.077
885.6	0.085
885.8	0.074
886.0	0.074
886.2	0.100
886.4	0.083
886.6	0.079
886.8	0.067
887.0	0.090
887.2	0.095
887.4	0.078
887.6	0.080
887.8	0.107
888.0	0.093
888.2	0.091
888.4	0.093
888.6	0.107
888.8	0.099
889.0	0.093
889.2	0.085
889.4	0.090
889.6	0.093
889.8	0.087
890.0	0.085
890.2	0.094
890.4	0.086
890.6	0.075
890.8	0.076
891.0	0.057
891.2	0.071
891.4	0.069
891.6	0.082
891.8	0.083
892.0	0.068
892.2	0.082
892.4	0.086
892.6	0.082
892.8	0.083
893.0	0.088
893.2	0.086
893.4	0.082
893.6	0.096
893.8	0.102
894.0	0.098
894.2	0.100
894.4	0.098
894.6	0.091
894.8	0.093
895.0	0.080
895.2	0.074
895.4	0.067
895.6	0.066
895.8	0.066
896.0	0.055
896.2	0.066
896.4	0.072
896.6	0.066
896.8	0.064
897.0	0.067
897.2	0.072
897.4	0.079
897.6	0.082
897.8	0.074
898.0	0.066
898.2	0.066
898.4	0.066
898.6	0.071
898.8	0.063
899.0	0.065
899.2	0.062
899.4	0.066
899.6	0.064
899.8	0.067
900.0	0.066

